Folder: ECSA-Tafel-App/Tafel (part 2)

File: FeCoNiCuMn.mpt
EC-Lab ASCII FILE
Nb header lines : 63

Cyclic Voltammetry

Run on channel : 1 (SN 1153)
User :
Electrode connection : standard
Potential control : Ewe
Ewe ctrl range : min = -2,50 V, max = 2,50 V
Ewe,I filtering : 50 kHz
Safety Limits :
	Do not start on E overload
Channel : Grounded
Acquisition started on : 12/16/2024 13:22:43.286
Technique started on : 12/16/2024 13:22:48.387
Loaded Setting File :  C:\Users\lab10\Desktop\Luka Suhadolnik\Maja Mejrema\23. julij 2024\K11-2_FeCoNiCuMn_N700C30m_AO50V5m\4 OER.mps
Saved on :
	File : 6 OER_03_CV_C01.mpr
	Directory : C:\Users\lab10\Desktop\Luka Suhadolnik\K12-3_FeCoNiCuMn\
	Host : 192.168.0.28
Device : SP-200 (SN 0067)
Address : USB
EC-Lab for windows v11.52 (software)
Internet server v11.52 (firmware)
Command interpretor v11.52 (firmware)
Electrode material :
Initial state :
Electrolyte :
Comments :
Cable : standard
Electrode surface area : 0,001 cm²
Characteristic mass : 0,001 g
Equivalent Weight : 0,000 g/eq.
Density : 0,000 g/cm3
Volume (V) : 0,001 cm³
Cycle Definition : Charge/Discharge alternance
Ei (V)              0,277
vs.                 Ref
dE/dt               2,000
dE/dt unit          mV/s
E1 (V)              0,677
vs.                 Ref
Step percent        85
N                   17
E range min (V)     -2,500
E range max (V)     2,500
I Range             100 mA
I Range min         Unset
I Range max         Unset
I Range init        Unset
Bandwidth           8
E2 (V)              0,277
vs.                 Ref
nc cycles           1
Reverse Scan        1
Ef (V)              0,277
vs.                 Ref

Modify on : 12/16/2024 13:26
nc cycles           0

mode	ox/red	error	control changes	counter inc.	time/s	control/V	Ewe/V	<I>/mA	cycle number	(Q-Qo)/C	I Range	Rcmp/Ohm	step time/s	P/W
2	1	0	1	0	5,100999871137901E+000	2,7701002E-001	2,7618948E-001	6,780205368995667E-001	1,000000000000000E+000	0,0000000E+000	38	5,6949992E+000	0,000000000000000E+000	1,8726214E-004
2	1	0	1	0	1,234909968803549E+001	2,9150599E-001	2,9063973E-001	4,360759869487087E-001	1,000000000000000E+000	3,8392555E-003	38	5,6949954E+000	6,798199828263023E+000	1,2674101E-004
2	1	0	1	0	1,999709949483076E+001	3,0680200E-001	3,0592212E-001	3,515061510527668E-001	1,000000000000000E+000	6,8073729E-003	38	5,6949954E+000	1,444619963505829E+001	1,0753351E-004
2	1	0	1	0	2,764509930162603E+001	3,2209796E-001	3,2121214E-001	3,111567792222781E-001	1,000000000000000E+000	9,3268827E-003	38	5,6949954E+000	2,209419944185356E+001	9,9947334E-005
2	1	0	1	0	3,529309910842130E+001	3,3739397E-001	3,3651289E-001	2,865656678714745E-001	1,000000000000000E+000	1,1608131E-002	38	5,6949954E+000	2,974219924864883E+001	9,6433039E-005
2	1	0	1	0	4,294109891521657E+001	3,5268998E-001	3,5179794E-001	2,703165401532162E-001	1,000000000000000E+000	1,3734879E-002	38	5,6949954E+000	3,739019905544410E+001	9,5096802E-005
2	1	0	1	0	5,058909872201184E+001	3,6798596E-001	3,6711329E-001	2,597157903482397E-001	1,000000000000000E+000	1,5761578E-002	38	5,6949954E+000	4,503819886223937E+001	9,5345116E-005
2	1	0	1	0	5,823699852880964E+001	3,8328174E-001	3,8241121E-001	2,519711869371232E-001	1,000000000000000E+000	1,7717397E-002	38	5,6949959E+000	5,268609866903716E+001	9,6356605E-005
2	1	0	1	0	6,588489833560743E+001	3,9857754E-001	3,9768231E-001	2,462884115966357E-001	1,000000000000000E+000	1,9621829E-002	38	5,6949954E+000	6,033399847583496E+001	9,7944547E-005
2	1	0	1	0	7,353289814240270E+001	4,1387355E-001	4,1301426E-001	2,437830990802650E-001	1,000000000000000E+000	2,1498056E-002	38	5,6949954E+000	6,798199828263023E+001	1,0068589E-004
2	1	0	1	0	8,118089794919797E+001	4,2916954E-001	4,2829707E-001	2,418969014504326E-001	1,000000000000000E+000	2,3357093E-002	38	5,6949954E+000	7,562999808942550E+001	1,0360374E-004
2	1	0	1	0	8,882889775599324E+001	4,4446552E-001	4,4357562E-001	2,409652054307141E-001	1,000000000000000E+000	2,5206698E-002	38	5,6949954E+000	8,327799789622077E+001	1,0688629E-004
2	1	0	1	0	9,647689756278851E+001	4,5976150E-001	4,5890146E-001	2,420131215841010E-001	1,000000000000000E+000	2,7053034E-002	38	5,6949954E+000	9,092599770301604E+001	1,1106017E-004
2	1	0	1	0	1,041248973695838E+002	4,7505754E-001	4,7418451E-001	2,433175845362552E-001	1,000000000000000E+000	2,8911542E-002	38	5,6949954E+000	9,857399750981131E+001	1,1537743E-004
2	1	0	1	0	1,117728971763790E+002	4,9035349E-001	4,8948014E-001	2,455725281817993E-001	1,000000000000000E+000	3,0780302E-002	38	5,6949954E+000	1,062219973166066E+002	1,2020287E-004
2	1	0	1	0	1,194208969831743E+002	5,0564945E-001	5,0476599E-001	2,495492571102069E-001	1,000000000000000E+000	3,2677393E-002	38	5,6949954E+000	1,138699971234018E+002	1,2596398E-004
2	1	0	1	0	1,270688967899696E+002	5,2094543E-001	5,2006948E-001	2,535630400936486E-001	1,000000000000000E+000	3,4606066E-002	38	5,6949954E+000	1,215179969301971E+002	1,3187040E-004
2	1	0	1	0	1,347166965967699E+002	5,3624111E-001	5,3537613E-001	2,599783910503395E-001	1,000000000000000E+000	3,6574505E-002	38	5,6949954E+000	1,291657967369974E+002	1,3918623E-004
2	1	0	1	0	1,423646964035652E+002	5,5153704E-001	5,5068207E-001	2,722880315141869E-001	1,000000000000000E+000	3,8610369E-002	38	5,6949954E+000	1,368137965437927E+002	1,4994414E-004
2	1	0	1	0	1,500126962103604E+002	5,6683308E-001	5,6595582E-001	2,955241536719209E-001	1,000000000000000E+000	4,0772706E-002	38	5,6949954E+000	1,444617963505880E+002	1,6725362E-004
2	1	0	1	0	1,576606960171557E+002	5,8212906E-001	5,8126086E-001	3,531544203454888E-001	1,000000000000000E+000	4,3231513E-002	38	5,6949954E+000	1,521097961573832E+002	2,0527485E-004
2	1	0	1	0	1,653086958239510E+002	5,9742510E-001	5,9654361E-001	4,910189761807016E-001	1,000000000000000E+000	4,6394512E-002	38	5,6949954E+000	1,597577959641785E+002	2,9291422E-004
2	1	0	1	0	1,729566956307463E+002	6,1272109E-001	6,1186492E-001	8,074321083084812E-001	1,000000000000000E+000	5,1215939E-002	38	5,6949954E+000	1,674057957709738E+002	4,9403938E-004
2	1	0	1	0	1,806046954375415E+002	6,2801701E-001	6,2715882E-001	1,456022877771224E+000	1,000000000000000E+000	5,9629668E-002	38	5,6949954E+000	1,750537955777691E+002	9,1315759E-004
2	1	0	1	0	1,882526952443368E+002	6,4331299E-001	6,4247835E-001	2,584775887724984E+000	1,000000000000000E+000	7,4780598E-002	38	5,6949954E+000	1,827017953845643E+002	1,6606626E-003
2	1	0	1	0	1,959006950511321E+002	6,5860903E-001	6,5777302E-001	4,270490027782301E+000	1,000000000000000E+000	1,0064287E-001	38	5,6949954E+000	1,903497951913596E+002	2,8090130E-003
2	1	0	1	0	2,035485948579299E+002	6,7390490E-001	6,7306554E-001	6,615548669779212E+000	1,000000000000000E+000	1,4193510E-001	38	5,6949964E+000	1,979976949981574E+002	4,4526979E-003
2	1	0	1	0	2,097974947000694E+002	6,6760659E-001	6,6675413E-001	5,339050970077764E+000	1,000000000000000E+000	1,8181607E-001	38	5,6949954E+000	2,042465948402969E+002	3,5598343E-003
2	1	0	1	0	2,174454945068646E+002	6,5231049E-001	6,5145159E-001	3,155537965123074E+000	1,000000000000000E+000	2,1369025E-001	38	5,6949964E+000	2,118945946470922E+002	2,0556801E-003
2	1	0	1	0	2,250934943136599E+002	6,3701457E-001	6,3619781E-001	1,803632431042054E+000	1,000000000000000E+000	2,3223346E-001	38	5,6949954E+000	2,195425944538874E+002	1,1474669E-003
[...]
2	1	0	1	0	2,633332933476413E+002	5,6053507E-001	5,5969507E-001	1,269112047060714E-001	1,000000000000000E+000	2,5411612E-001	38	5,6949964E+000	2,577823934878688E+002	7,1031573E-005
2	1	0	1	0	2,709812931544366E+002	5,4523903E-001	5,4436213E-001	9,892682364346883E-002	1,000000000000000E+000	2,5496390E-001	38	5,6949954E+000	2,654303932946641E+002	5,3852018E-005
2	1	0	1	0	2,786292929612318E+002	5,2994299E-001	5,2907008E-001	8,193801794940558E-002	1,000000000000000E+000	2,5564447E-001	38	5,6949954E+000	2,730783931014594E+002	4,3350952E-005
2	1	0	1	0	2,862772927680271E+002	5,1464701E-001	5,1375741E-001	7,000161560887674E-002	1,000000000000000E+000	2,5622079E-001	38	5,6949954E+000	2,807263929082546E+002	3,5963847E-005
2	1	0	1	0	2,939252925748224E+002	4,9935105E-001	4,9847671E-001	6,013887352937777E-002	1,000000000000000E+000	2,5671166E-001	38	5,6949954E+000	2,883743927150499E+002	2,9977828E-005
2	1	0	1	0	3,015732923816176E+002	4,8405501E-001	4,8318017E-001	5,050263787678666E-002	1,000000000000000E+000	2,5713107E-001	38	5,6949954E+000	2,960223925218452E+002	2,4401874E-005
2	1	0	1	0	3,092212921884129E+002	4,6875906E-001	4,6786627E-001	4,252314814283886E-002	1,000000000000000E+000	2,5748259E-001	38	5,6949954E+000	3,036703923286404E+002	1,9895147E-005
2	1	0	1	0	3,168692919952082E+002	4,5346305E-001	4,5258927E-001	3,404658553993956E-002	1,000000000000000E+000	2,5777051E-001	38	5,6949954E+000	3,113183921354357E+002	1,5409119E-005
2	1	0	1	0	3,245172918020035E+002	4,3816707E-001	4,3727615E-001	2,716026424515428E-002	1,000000000000000E+000	2,5799996E-001	38	5,6949954E+000	3,189663919422310E+002	1,1876536E-005
2	1	0	1	0	3,321650916088038E+002	4,2287141E-001	4,2198086E-001	2,084284826626734E-002	1,000000000000000E+000	2,5817961E-001	38	5,6949954E+000	3,266141917490313E+002	8,7952831E-006
2	1	0	1	0	3,398130914155990E+002	4,0757552E-001	4,0669560E-001	1,447527920041330E-002	1,000000000000000E+000	2,5831184E-001	38	5,6949954E+000	3,342621915558266E+002	5,8870323E-006
2	1	0	1	0	3,474610912223943E+002	3,9227948E-001	3,9135700E-001	9,317468876227608E-003	1,000000000000000E+000	2,5839573E-001	38	5,6949954E+000	3,419101913626218E+002	3,6464567E-006
2	1	0	1	0	3,551090910291896E+002	3,7698349E-001	3,7612140E-001	4,276632910961767E-003	1,000000000000000E+000	2,5844657E-001	38	5,6949954E+000	3,495581911694171E+002	1,6085331E-006
2	0	0	1	0	3,627570908359849E+002	3,6168748E-001	3,6077788E-001	-9,243161476518227E-004	1,000000000000000E+000	2,5845385E-001	38	5,6949954E+000	1,699599957064493E+000	-3,3347283E-007
2	0	0	1	0	3,704050906427801E+002	3,4639150E-001	3,4549814E-001	-6,989549752330237E-003	1,000000000000000E+000	2,5841916E-001	38	5,6949954E+000	9,347599763859762E+000	-2,4148765E-006
2	0	0	1	0	3,780530904495754E+002	3,3109552E-001	3,3022130E-001	-1,180377176682315E-002	1,000000000000000E+000	2,5834215E-001	38	5,6949954E+000	1,699559957065503E+001	-3,8978569E-006
2	0	0	1	0	3,857010902563707E+002	3,1579953E-001	3,1489524E-001	-1,537222581973270E-002	1,000000000000000E+000	2,5823471E-001	38	5,6949954E+000	2,464359937745030E+001	-4,8406409E-006
2	0	0	1	0	3,933490900631659E+002	3,0050352E-001	2,9961365E-001	-2,038614589146520E-002	1,000000000000000E+000	2,5809520E-001	38	5,6949954E+000	3,229159918424557E+001	-6,1079677E-006
2	0	0	1	0	4,009968898699663E+002	2,8520790E-001	2,8430787E-001	-2,352894568549230E-002	1,000000000000000E+000	2,5792521E-001	38	5,6949964E+000	3,993939899104589E+001	-6,6894645E-006
2	0	0	1	1	4,050761897669145E+002	2,7701002E-001	2,7606478E-001	-2,585435233416811E-002	1,000000000000000E+000	2,5782356E-001	38	5,6949992E+000	4,401869888799411E+001	-7,1374761E-006