Folder: ECSA-Tafel-App/ECSA/ECSA header

Note: README.md
# ECSA-Tafel-App
A desktop application for calculating and visualizing data from electrochemical surface area (ECSA) and Tafel experiments. Combines advanced analysis and plotting tools to evaluate catalyst performance and reaction kinetics efficiently.

File: 4 CV for ECSA_01_CV_C01.txt
EC-Lab ASCII FILE
Nb header lines : 61

Cyclic Voltammetry

Run on channel : 1 (SN 1153)
User :
Electrode connection : standard
Potential control : Ewe
Ewe ctrl range : min = -2,50 V, max = 2,50 V
Ewe,I filtering : 50 kHz
Safety Limits :
	Do not start on E overload
Channel : Grounded
Acquisition started on : 12/20/2024 11:49:19.340
Technique started on : 12/20/2024 11:49:19.340
Loaded Setting File :  C:\Users\lab10\Desktop\Andraž Stariha\T20-6_ED-PP-Fe-1-1.5V-50-10-60m\6 CV for ECSA.mps
Saved on :
	File : 4 CV for ECSA_01_CV_C01.mpr
	Directory : C:\Users\lab10\Desktop\Andraž Stariha\IMT16-Fe-3_ED-PP-Co-1-1.5V-50-10-60m\
	Host : 178.172.20.122
Device : SP-200 (SN 0067)
Address : USB
EC-Lab for windows v11.52 (software)
Internet server v11.52 (firmware)
Command interpretor v11.52 (firmware)
Electrode material :
Initial state :
Electrolyte :
Comments :
Cable : standard
Reference electrode : SCE Saturated Calomel Electrode (0,241 V)
Electrode surface area : 0,001 cm²
Characteristic mass : 0,001 g
Equivalent Weight : 0,000 g/eq.
Density : 0,000 g/cm3
Volume (V) : 0,001 cm³
Cycle Definition : Charge/Discharge alternance
Ei (V)              -0,150
vs.                 Ref
dE/dt               1000,000
dE/dt unit          mV/s
E1 (V)              0,050
vs.                 Ei
Step percent        85
N                   17
E range min (V)     -2,500
E range max (V)     2,500
I Range             10 mA
I Range min         Unset
I Range max         Unset
I Range init        Unset
Bandwidth           8
E2 (V)              -0,050
vs.                 Ei
nc cycles           2
Reverse Scan        1
Ef (V)              0,000
vs.                 Ei

Ewe/V	<I>/mA	time/s	cycle number
-1,5014201E-001	-1,643052697181702E+000	0,000000000000000E+000	1,000000000000000E+000
-1,4471562E-001	-3,348147239084938E-001	5,199999868636951E-003	1,000000000000000E+000
-1,3791367E-001	-1,380783745617005E-001	1,199999969685450E-002	1,000000000000000E+000
-1,3110478E-001	-4,850849288050052E-002	1,879999952507205E-002	1,000000000000000E+000
-1,2432966E-001	1,027445246997874E-002	2,559999935328960E-002	1,000000000000000E+000
-1,1753821E-001	5,532941184537782E-002	3,239999918150716E-002	1,000000000000000E+000
-1,1073720E-001	9,374272750756107E-002	3,919999900972471E-002	1,000000000000000E+000
-1,0391875E-001	1,282194432369583E-001	4,599999883794226E-002	1,000000000000000E+000
-9,9925622E-002	1,471286714076996E-001	4,999999873689376E-002	1,000000000000000E+000
-9,9933267E-002	1,115730181336403E-001	5,039999872678891E-002	1,000000000000000E+000
-1,0510439E-001	-3,062336993281167E-002	5,559999859542586E-002	1,000000000000000E+000
-1,1191220E-001	-1,013460238737023E-001	6,239999842364341E-002	1,000000000000000E+000
-1,1873162E-001	-1,441501634708402E-001	6,919999825186096E-002	1,000000000000000E+000
-1,2551507E-001	-1,751445124118618E-001	7,599999808007851E-002	1,000000000000000E+000
-1,3229507E-001	-1,994257015176109E-001	8,279999790829606E-002	1,000000000000000E+000
-1,3909894E-001	-2,190192115140239E-001	8,959999773651361E-002	1,000000000000000E+000
-1,4591093E-001	-2,360471560459687E-001	9,639999756473117E-002	1,000000000000000E+000
-1,5270096E-001	-2,509625774164288E-001	1,031999973929487E-001	1,000000000000000E+000
-1,5950149E-001	-2,644497471828798E-001	1,099999972211663E-001	1,000000000000000E+000
-1,6630000E-001	-2,771798603171196E-001	1,167999970493838E-001	1,000000000000000E+000
-1,7309493E-001	-2,891243336271150E-001	1,235999968776014E-001	1,000000000000000E+000
-1,7988065E-001	-3,000209060464833E-001	1,303999967058189E-001	1,000000000000000E+000
-1,8668059E-001	-3,113811875082313E-001	1,371999965340365E-001	1,000000000000000E+000
-1,9349679E-001	-3,220345532390629E-001	1,439999963622540E-001	1,000000000000000E+000
-1,9910528E-001	-3,302880094997835E-001	1,495999962207861E-001	1,000000000000000E+000
-1,9991121E-001	-3,139122128486633E-001	1,503999962005764E-001	1,000000000000000E+000
-1,9771487E-001	-2,157824426085422E-001	1,525999961449998E-001	1,000000000000000E+000
-1,9091770E-001	-1,181808349210760E-001	1,593999959732173E-001	1,000000000000000E+000
-1,8411872E-001	-6,480921159482000E-002	1,661999958014349E-001	1,000000000000000E+000
-1,7730428E-001	-2,557447675076197E-002	1,729999956296524E-001	1,000000000000000E+000
-1,7050447E-001	6,284218087493798E-003	1,797999954578700E-001	1,000000000000000E+000
-1,6372342E-001	3,387012685698231E-002	1,865999952860875E-001	1,000000000000000E+000
-1,5692911E-001	5,889165626103932E-002	1,933999951143051E-001	1,000000000000000E+000
-1,5079835E-001	7,904390360151159E-002	1,994999949602061E-001	1,000000000000000E+000
-1,4791901E-001	8,859726463379070E-002	2,023999948869459E-001	2,000000000000000E+000
-1,4110474E-001	1,101745757387108E-001	2,091999947151635E-001	2,000000000000000E+000
-1,3430911E-001	1,312821661604178E-001	2,159999945433810E-001	2,000000000000000E+000
-1,2751573E-001	1,518294234792847E-001	2,227999943715986E-001	2,000000000000000E+000
-1,2073012E-001	1,722598612759603E-001	2,295999941998161E-001	2,000000000000000E+000
-1,1393580E-001	1,934234849595668E-001	2,363999940280337E-001	2,000000000000000E+000
-1,0714028E-001	2,150782898806947E-001	2,431999938562512E-001	2,000000000000000E+000
-1,0104356E-001	2,348796534869404E-001	2,492999937021523E-001	2,000000000000000E+000
-9,9711590E-002	2,403287291526794E-001	2,505999936693115E-001	2,000000000000000E+000
-1,0171314E-001	1,243043186914296E-001	2,525999936187873E-001	2,000000000000000E+000
-1,0851724E-001	5,586790958486403E-003	2,593999934470048E-001	2,000000000000000E+000
-1,1531564E-001	-5,602878500258146E-002	2,661999932752224E-001	2,000000000000000E+000
-1,2210470E-001	-9,934316254384568E-002	2,729999931034399E-001	2,000000000000000E+000
-1,2888590E-001	-1,324572309385981E-001	2,797999929316575E-001	2,000000000000000E+000
-1,3569562E-001	-1,587388913467289E-001	2,865999927598750E-001	2,000000000000000E+000
-1,4249092E-001	-1,808371829029045E-001	2,933999925880926E-001	2,000000000000000E+000
-1,4929073E-001	-2,002840756213116E-001	3,001999924163101E-001	2,000000000000000E+000
-1,5609483E-001	-2,168768706378592E-001	3,069999922445277E-001	2,000000000000000E+000
-1,6289502E-001	-2,323692829668289E-001	3,137999920727452E-001	2,000000000000000E+000
-1,6969258E-001	-2,462868162365330E-001	3,205999919009628E-001	2,000000000000000E+000
-1,7649479E-001	-2,592887613536730E-001	3,273999917291803E-001	2,000000000000000E+000
-1,8327682E-001	-2,717923903837800E-001	3,341999915573979E-001	2,000000000000000E+000
-1,9008724E-001	-2,840349161997429E-001	3,409999913856154E-001	2,000000000000000E+000
-1,9690356E-001	-2,961117022059602E-001	3,477999912138330E-001	2,000000000000000E+000
-1,9967808E-001	-2,994152307510376E-001	3,505999911430990E-001	2,000000000000000E+000
-1,9973540E-001	-2,706311941146851E-001	3,511999911279418E-001	2,000000000000000E+000
-1,9431347E-001	-1,292252219345753E-001	3,563999909965787E-001	2,000000000000000E+000
-1,8751319E-001	-6,428822174120785E-002	3,631999908247963E-001	2,000000000000000E+000
-1,8070202E-001	-2,171180500920383E-002	3,699999906530138E-001	2,000000000000000E+000
-1,7390099E-001	1,162638746177436E-002	3,767999904812314E-001	2,000000000000000E+000
-1,6711684E-001	3,974877679320352E-002	3,835999903094489E-001	2,000000000000000E+000
-1,6031881E-001	6,462008665994301E-002	3,903999901376665E-001	2,000000000000000E+000
-1,5351564E-001	8,732163238437363E-002	3,971999899658840E-001	2,000000000000000E+000
-1,4971395E-001	9,970841556787491E-002	4,009999898698879E-001	3,000000000000000E+000
-1,4450136E-001	1,160711156044276E-001	4,061999897385249E-001	3,000000000000000E+000
-1,3772221E-001	1,368615740620958E-001	4,129999895667424E-001	3,000000000000000E+000
-1,3092025E-001	1,568258638108100E-001	4,197999893949600E-001	3,000000000000000E+000
-1,2413211E-001	1,771704630155009E-001	4,265999892231775E-001	3,000000000000000E+000
-1,1734783E-001	1,977582739891667E-001	4,333999890513951E-001	3,000000000000000E+000
-1,1054204E-001	2,185749609634522E-001	4,401999888796126E-001	3,000000000000000E+000
-1,0372788E-001	2,406541923319305E-001	4,469999887078302E-001	3,000000000000000E+000
-9,9868298E-002	2,544823288917542E-001	4,507999886118341E-001	3,000000000000000E+000
-9,9868290E-002	2,190411388874054E-001	4,511999886017293E-001	3,000000000000000E+000
-1,0509422E-001	6,553806519332295E-002	4,563999884703662E-001	3,000000000000000E+000
-1,1191615E-001	-1,473276824309272E-002	4,631999882985838E-001	3,000000000000000E+000
-1,1871392E-001	-6,595013339938283E-002	4,699999881268013E-001	3,000000000000000E+000
-1,2551937E-001	-1,038651104454402E-001	4,767999879550189E-001	3,000000000000000E+000
-1,3227369E-001	-1,337233311560337E-001	4,835999877832364E-001	3,000000000000000E+000
-1,3910444E-001	-1,582024157432897E-001	4,903999876114540E-001	3,000000000000000E+000
-1,4590509E-001	-1,789332706321147E-001	4,971999874396715E-001	3,000000000000000E+000
-1,5269750E-001	-1,970771050400790E-001	5,039999872678891E-001	3,000000000000000E+000
-1,5949720E-001	-2,130654551601765E-001	5,107999870961066E-001	3,000000000000000E+000
-1,6629761E-001	-2,280070855667868E-001	5,175999869243242E-001	3,000000000000000E+000
-1,7309159E-001	-2,415216604986199E-001	5,243999867525417E-001	3,000000000000000E+000
-1,7988449E-001	-2,540014451369643E-001	5,311999865807593E-001	3,000000000000000E+000
-1,8668348E-001	-2,668853715767890E-001	5,379999864089768E-001	3,000000000000000E+000
-1,9350025E-001	-2,788179257113370E-001	5,447999862371944E-001	3,000000000000000E+000
-1,9910863E-001	-2,881562974944241E-001	5,503999860957265E-001	3,000000000000000E+000
-1,9988827E-001	-2,729774117469788E-001	5,511999860755168E-001	3,000000000000000E+000
-1,9772908E-001	-1,769971715639250E-001	5,533999860199401E-001	3,000000000000000E+000
-1,9089261E-001	-8,334764307846854E-002	5,601999858481577E-001	3,000000000000000E+000
-1,8411548E-001	-3,291355506757987E-002	5,669999856763752E-001	3,000000000000000E+000
-1,7731386E-001	3,760367616700849E-003	5,737999855045928E-001	3,000000000000000E+000
-1,7051943E-001	3,358042684931201E-002	5,805999853328103E-001	3,000000000000000E+000
-1,6373405E-001	5,959385097958203E-002	5,873999851610279E-001	3,000000000000000E+000
-1,5692599E-001	8,330278367066102E-002	5,941999849892454E-001	3,000000000000000E+000
-1,5091144E-001	1,026006444390080E-001	6,001999848376727E-001	3,000000000000000E+000
-1,4970630E-001	1,052401438355446E-001	6,013999848073581E-001	3,000000000000000E+000

File: 4 CV for ECSA_02_CV_C01.txt
EC-Lab ASCII FILE
Nb header lines : 61

Cyclic Voltammetry

Run on channel : 1 (SN 1153)
User :
Electrode connection : standard
Potential control : Ewe
Ewe ctrl range : min = -2,50 V, max = 2,50 V
Ewe,I filtering : 50 kHz
Safety Limits :
	Do not start on E overload
Channel : Grounded
Acquisition started on : 12/20/2024 11:49:19.340
Technique started on : 12/20/2024 11:49:20.042
Loaded Setting File :  C:\Users\lab10\Desktop\Andraž Stariha\T20-6_ED-PP-Fe-1-1.5V-50-10-60m\6 CV for ECSA.mps
Saved on :
	File : 4 CV for ECSA_02_CV_C01.mpr
	Directory : C:\Users\lab10\Desktop\Andraž Stariha\IMT16-Fe-3_ED-PP-Co-1-1.5V-50-10-60m\
	Host : 178.172.20.122
Device : SP-200 (SN 0067)
Address : USB
EC-Lab for windows v11.52 (software)
Internet server v11.52 (firmware)
Command interpretor v11.52 (firmware)
Electrode material :
Initial state :
Electrolyte :
Comments :
Cable : standard
Reference electrode : SCE Saturated Calomel Electrode (0,241 V)
Electrode surface area : 0,001 cm²
Characteristic mass : 0,001 g
Equivalent Weight : 0,000 g/eq.
Density : 0,000 g/cm3
Volume (V) : 0,001 cm³
Cycle Definition : Charge/Discharge alternance
Ei (V)              -0,150
vs.                 Ref
dE/dt               500,000
dE/dt unit          mV/s
E1 (V)              0,050
vs.                 Ei
Step percent        85
N                   17
E range min (V)     -2,500
E range max (V)     2,500
I Range             10 mA
I Range min         Unset
I Range max         Unset
I Range init        Unset
Bandwidth           8
E2 (V)              -0,050
vs.                 Ei
nc cycles           2
Reverse Scan        1
Ef (V)              0,000
vs.                 Ei

Ewe/V	<I>/mA	time/s	cycle number
-1,4989740E-001	-8,009178936481476E-002	7,021999822609359E-001	1,000000000000000E+000
-1,4391136E-001	3,200197605224273E-002	7,141999819577904E-001	1,000000000000000E+000
-1,3709769E-001	6,174574049737196E-002	7,277999816142255E-001	1,000000000000000E+000
-1,3029835E-001	8,342677088421646E-002	7,413999812706606E-001	1,000000000000000E+000
-1,2352648E-001	1,026578647952192E-001	7,549999809270957E-001	1,000000000000000E+000
-1,1673466E-001	1,205584892104530E-001	7,685999805835309E-001	1,000000000000000E+000
-1,0992659E-001	1,378594332663853E-001	7,821999802399660E-001	1,000000000000000E+000
-1,0313036E-001	1,551639648314449E-001	7,957999798964011E-001	1,000000000000000E+000
-9,9849179E-002	1,642579436302185E-001	8,023999797296710E-001	1,000000000000000E+000
-1,0421591E-001	4,366152236912069E-002	8,111999795073643E-001	1,000000000000000E+000
-1,1102576E-001	-1,454440336493690E-002	8,247999791637994E-001	1,000000000000000E+000
-1,1782630E-001	-4,994269235794491E-002	8,383999788202345E-001	1,000000000000000E+000
-1,2462767E-001	-7,551501155830920E-002	8,519999784766696E-001	1,000000000000000E+000
-1,3139273E-001	-9,541968532903389E-002	8,655999781331047E-001	1,000000000000000E+000
-1,3821092E-001	-1,117347070448880E-001	8,791999777895398E-001	1,000000000000000E+000
-1,4499201E-001	-1,253673252231235E-001	8,927999774459749E-001	1,000000000000000E+000
-1,5180758E-001	-1,373523312877295E-001	9,063999771024100E-001	1,000000000000000E+000
-1,5860681E-001	-1,481737785297807E-001	9,199999767588452E-001	1,000000000000000E+000
-1,6540687E-001	-1,579019918299305E-001	9,335999764152803E-001	1,000000000000000E+000
-1,7220034E-001	-1,670090728985085E-001	9,471999760717154E-001	1,000000000000000E+000
-1,7899217E-001	-1,757417968474324E-001	9,607999757281505E-001	1,000000000000000E+000
-1,8580490E-001	-1,839809790926665E-001	9,743999753845856E-001	1,000000000000000E+000
-1,9261198E-001	-1,923870507562233E-001	9,879999750410207E-001	1,000000000000000E+000
-1,9915679E-001	-2,003002276707604E-001	1,001099974710087E+000	1,000000000000000E+000
-1,9881880E-001	-1,444458234573174E-001	1,004799974616617E+000	1,000000000000000E+000
-1,9200681E-001	-7,044346692873649E-002	1,018399974273052E+000	1,000000000000000E+000
-1,8520688E-001	-3,478289704912635E-002	1,031999973929487E+000	1,000000000000000E+000
-1,7841122E-001	-8,835041003123892E-003	1,045599973585922E+000	1,000000000000000E+000
-1,7160511E-001	1,212948838144717E-002	1,059199973242357E+000	1,000000000000000E+000
-1,6482034E-001	3,066315534806563E-002	1,072799972898792E+000	1,000000000000000E+000
-1,5800940E-001	4,767679415226682E-002	1,086399972555228E+000	1,000000000000000E+000
-1,5122259E-001	6,330987972387481E-002	1,099999972211663E+000	1,000000000000000E+000
-1,4723656E-001	7,232516253498023E-002	1,107999972009566E+000	2,000000000000000E+000
-1,4041227E-001	8,717379566314809E-002	1,121599971666001E+000	2,000000000000000E+000
-1,3361625E-001	1,018602964131787E-001	1,135199971322436E+000	2,000000000000000E+000
-1,2682517E-001	1,165408304041193E-001	1,148799970978871E+000	2,000000000000000E+000
-1,2003954E-001	1,311104938067729E-001	1,162399970635306E+000	2,000000000000000E+000
-1,1323806E-001	1,458387069051242E-001	1,175999970291741E+000	2,000000000000000E+000
-1,0643836E-001	1,614515393939655E-001	1,189599969948176E+000	2,000000000000000E+000
-1,0024047E-001	1,759890158500637E-001	1,201999969634926E+000	2,000000000000000E+000
-1,0082345E-001	1,186283437727986E-001	1,204799969564192E+000	2,000000000000000E+000
-1,0762221E-001	2,128902628339804E-002	1,218399969220627E+000	2,000000000000000E+000
-1,1443254E-001	-2,353226927766627E-002	1,231999968877062E+000	2,000000000000000E+000
-1,2122925E-001	-5,427627363724230E-002	1,245599968533497E+000	2,000000000000000E+000
-1,2800339E-001	-7,732593152059053E-002	1,259199968189932E+000	2,000000000000000E+000
-1,3479055E-001	-9,587987424674760E-002	1,272799967846368E+000	2,000000000000000E+000
-1,4158344E-001	-1,112339875371616E-001	1,286399967502803E+000	2,000000000000000E+000
-1,4840488E-001	-1,244791429280667E-001	1,299999967159238E+000	2,000000000000000E+000
-1,5520817E-001	-1,358835713745065E-001	1,313599966815673E+000	2,000000000000000E+000
-1,6200557E-001	-1,465679083821665E-001	1,327199966472108E+000	2,000000000000000E+000
-1,6880575E-001	-1,561554474337754E-001	1,340799966128543E+000	2,000000000000000E+000
-1,7561395E-001	-1,656487863092482E-001	1,354399965784978E+000	2,000000000000000E+000
-1,8238628E-001	-1,737782710424649E-001	1,367999965441413E+000	2,000000000000000E+000
-1,8919817E-001	-1,822856884191424E-001	1,381599965097848E+000	2,000000000000000E+000
-1,9600634E-001	-1,904545226261680E-001	1,395199964754283E+000	2,000000000000000E+000
-1,9994561E-001	-1,860720366239548E-001	1,402999964557239E+000	2,000000000000000E+000
-1,9541883E-001	-9,129950476744852E-002	1,411999964329880E+000	2,000000000000000E+000
-1,8862249E-001	-4,598702830662632E-002	1,425599963986315E+000	2,000000000000000E+000
-1,8180236E-001	-1,693949900459296E-002	1,439199963642750E+000	2,000000000000000E+000
-1,7501748E-001	5,843110384063279E-003	1,452799963299185E+000	2,000000000000000E+000
-1,6821429E-001	2,521726577742822E-002	1,466399962955620E+000	2,000000000000000E+000
-1,6143049E-001	4,267797148304453E-002	1,479999962612055E+000	2,000000000000000E+000
-1,5462390E-001	5,882727544485555E-002	1,493599962268490E+000	2,000000000000000E+000
-1,4983626E-001	6,945559382438660E-002	1,503199962025974E+000	3,000000000000000E+000
-1,4382310E-001	8,281160507613072E-002	1,515199961722828E+000	3,000000000000000E+000
-1,3701263E-001	9,779614525177815E-002	1,528799961379264E+000	3,000000000000000E+000
-1,3021690E-001	1,122883141715649E-001	1,542399961035699E+000	3,000000000000000E+000
-1,2343583E-001	1,268293679322601E-001	1,555999960692134E+000	3,000000000000000E+000
-1,1664172E-001	1,417316487541033E-001	1,569599960348569E+000	3,000000000000000E+000
-1,0983521E-001	1,569522281915856E-001	1,583199960005004E+000	3,000000000000000E+000
-1,0302669E-001	1,724041115139699E-001	1,596799959661439E+000	3,000000000000000E+000
-9,9845365E-002	1,794034391641617E-001	1,603199959499761E+000	3,000000000000000E+000
-1,0422821E-001	5,919565855492692E-002	1,611999959277455E+000	3,000000000000000E+000
-1,1102193E-001	-4,361144816726805E-004	1,625599958933890E+000	3,000000000000000E+000
-1,1783095E-001	-3,699320486407481E-002	1,639199958590325E+000	3,000000000000000E+000
-1,2463806E-001	-6,375174330514710E-002	1,652799958246760E+000	3,000000000000000E+000
-1,3140957E-001	-8,414521955819476E-002	1,666399957903195E+000	3,000000000000000E+000
-1,3820769E-001	-1,010873188633914E-001	1,679999957559630E+000	3,000000000000000E+000
-1,4501220E-001	-1,153303265764407E-001	1,693599957216065E+000	3,000000000000000E+000
-1,5181834E-001	-1,276169733882849E-001	1,707199956872500E+000	3,000000000000000E+000
-1,5860322E-001	-1,385385555022366E-001	1,720799956528936E+000	3,000000000000000E+000
-1,6542228E-001	-1,487543711309622E-001	1,734399956185371E+000	3,000000000000000E+000
-1,7221266E-001	-1,577660794755502E-001	1,747999955841806E+000	3,000000000000000E+000
-1,7900448E-001	-1,666001490830236E-001	1,761599955498241E+000	3,000000000000000E+000
-1,8580548E-001	-1,751254398568554E-001	1,775199955154676E+000	3,000000000000000E+000
-1,9260482E-001	-1,831810105431932E-001	1,788799954811111E+000	3,000000000000000E+000
-1,9916183E-001	-1,909049574857240E-001	1,801899954480177E+000	3,000000000000000E+000
-1,9883278E-001	-1,358561366314457E-001	1,805599954386707E+000	3,000000000000000E+000
-1,9202484E-001	-6,306266147112172E-002	1,819199954043143E+000	3,000000000000000E+000
-1,8521176E-001	-2,825331193162106E-002	1,832799953699578E+000	3,000000000000000E+000
-1,7842117E-001	-2,828825109702379E-003	1,846399953356013E+000	3,000000000000000E+000
-1,7162541E-001	1,805701877617602E-002	1,859999953012448E+000	3,000000000000000E+000
-1,6483323E-001	3,595644636402567E-002	1,873599952668883E+000	3,000000000000000E+000
-1,5803435E-001	5,282106069080350E-002	1,887199952325318E+000	3,000000000000000E+000
-1,5122224E-001	6,845891459943250E-002	1,900799951981753E+000	3,000000000000000E+000
-1,4979421E-001	7,105788588523865E-002	1,903599951911019E+000	3,000000000000000E+000